File: inst/extdata/2Theta.asc
*TYPE		=  Raw
*CLASS		=  ASCII CLASS
*SAMPLE		=  JC170705CuPcAuCrSi5
*COMMENT	=
*FNAME		=  JC170705CuPcAuCrSi5_Theta_2-Theta.asc
*DATE		=  12-Jul-17 17:31

*GROUP_COUNT	=  1
*GONIO		=  SmartLab, 0.000000
*ATTACHMENT	=  Standard Z stage
*ASC		=  0, 0, 0.000000, 0.000000
*I_MONOCHRO	=  Soller_slit_5.0deg, 0.000000
*FILTER		=  Cu_K-beta
*C_MONOCHRO	=  None, 0.000000
*SLIT_NAME	=  0, Incident slit
*SLIT_NAME	=  1, Receiving slit # 1
*SLIT_NAME	=  2, Receiving slit # 2
*COUNTER	=  SC-70, 0
*POS_FORMAT	=  0
*SCAN_AXIS	=  2theta/theta
*MEAS_MODE	=  Continuous Scanning
*TARGET		=  29
*XRAY_CHAR	=  K-ALPHA
*WAVE_LENGTH1	=  1.54059
*WAVE_LENGTH2	=  1.54441
*THICKNESS	=  0, 0.000000
*MU		=  0, 0.000000
*SCAN_MODE	=  2theta/theta
*SPEED_DIM	=  sec./step
*XUNIT		=  deg.
*YUNIT		=  counts
*SCALE_MODE	=  1
*REP_COUNT	=  0
*SE_COUNT	=  0
*STD_MATERIAL	=  Unknown, Unknown, 0.000000, 0.000000, 0.000000, 0.000000, 0.000000, 0.000000
*LATT_CONS	=  0, Unknown, Unknown, 0.000000, 0.000000, 0.000000, 0.000000, 0.000000, 0.000000
*SEC_COUNT	=  1
*TSPEC_SIZE	=  0
*EXTRA_SIZE	=  0
*MEMO		=  Pre CuPc

*BEGIN
*GROUP		=  0
*START		=  4
*STOP		=  80
*STEP		=  0.01
*OFFSET		=  0.000000
*SPEED		=  0.6
*SLIT_SPEC	=  0, 2/3deg, 2, 0.000000
*SLIT_SPEC	=  1, 2/3deg, 2, 0.000000
*SLIT_SPEC	=  2, 0.300mm, 0.3, 0.000000
*KV		=  40
*MA		=  44
*LOW		=  0.000000
*HIGH		=  0.000000
*CTEMPER	=  0, 0.000000
*CTEMPER	=  1, 0.000000
*CTEMPER	=  2, 0.000000
*PAREX		=  0, 0.000000
*PAREX		=  1, 0.000000
*PAREX		=  2, 0.000000
*PAREX		=  3, 0.000000
*PAREX		=  4, 0.000000
*PAREX		=  5, 0.000000
*PAREX		=  6, 0.000000
*PAREX		=  7, 0.000000
*PAREX		=  8, 0.000000
*PAREX		=  9, 0.000000
*PAREX		=  10, 0.000000
*PAREX		=  11, 0.000000
*PAREX		=  12, 0.000000
*PAREX		=  13, 0.000000
*PAREX		=  14, 0.000000
*PAREX		=  15, 0.000000
*FULL_SCALE	=  1435138
*INDEX		=  0, 0, 0
*COUNT		=  7601
767, 794, 798, 809
739, 736, 794, 716
741, 750, 736, 758
778, 703, 715, 722
716, 700, 718, 659
734, 699, 717, 679
690, 689, 636, 703
695, 685, 709, 686
671, 735, 660, 663
654, 695, 686, 685
642, 692, 699, 642
640, 678, 635, 660
656, 593, 653, 651
629, 621, 660, 653
615, 689, 655, 670
673, 627, 657, 620
581, 625, 614, 624
628, 645, 620, 672
616, 599, 576, 627
616, 619, 638, 623
597, 621, 597, 578
579, 626, 598, 605
665, 587, 619, 631
536, 568, 544, 573
577, 578, 535, 559
551, 576, 581, 590
569, 585, 580, 556
555, 572, 553, 586
545, 577, 544, 528
595, 557, 552, 561
505, 582, 572, 567
592, 524, 567, 564
571, 528, 585, 603
540, 527, 575, 543
547, 549, 547, 517
584, 552, 558, 583
547, 528, 556, 517
553, 541, 589, 521
538, 548, 581, 530
533, 507, 530, 510
559, 502, 559, 524
526, 538, 528, 514
552, 532, 569, 512
513, 513, 528, 514
520, 519, 481, 554
532, 500, 497, 487
551, 544, 534, 491
545, 479, 519, 508
517, 536, 542, 520
493, 514, 534, 521
492, 539, 502, 554
497, 501, 511, 480
553, 496, 537, 519
468, 505, 527, 482
464, 487, 482, 513
519, 499, 472, 514
508, 480, 504, 528
505, 539, 525, 547
525, 501, 517, 524
552, 532, 509, 576
514, 529, 605, 557
557, 552, 578, 590
591, 633, 561, 585
565, 572, 542, 606
547, 563, 540, 577
587, 560, 549, 578
562, 591, 537, 546
567, 570, 567, 584
576, 537, 548, 602
573, 550, 590, 568
537, 531, 571, 570
593, 574, 540, 590
602, 531, 535, 533
537, 585, 562, 539
523, 570, 587, 567
571, 565, 516, 581
551, 521, 573, 558
537, 502, 550, 511
484, 500, 526, 531
494, 498, 458, 545
505, 510, 459, 488
470, 438, 440, 454
391, 475, 465, 446
459, 501, 477, 474
493, 455, 459, 476
418, 473, 434, 468
449, 447, 442, 442
457, 470, 481, 442
437, 435, 456, 480
427, 438, 481, 464
445, 419, 470, 415
429, 458, 437, 426
479, 412, 437, 452
452, 493, 454, 439
445, 471, 450, 467
430, 447, 453, 448
450, 430, 461, 422
448, 460, 476, 403
449, 424, 463, 451
421, 410, 418, 451
448, 431, 439, 432
425, 422, 468, 410
451, 481, 441, 430
438, 440, 415, 420
431, 426, 429, 491
461, 427, 407, 443
416, 432, 431, 422
399, 464, 443, 455
410, 429, 415, 399
433, 436, 434, 402
491, 455, 439, 419
410, 446, 456, 455
436, 415, 421, 429
440, 417, 410, 365
419, 437, 455, 458
444, 412, 466, 458
435, 433, 444, 412
448, 390, 457, 413
415, 435, 471, 422
423, 421, 460, 455
426, 444, 450, 424
428, 419, 430, 449
438, 408, 410, 438
440, 464, 452, 486
449, 473, 452, 440
432, 469, 481, 461
462, 494, 472, 429
525, 505, 482, 463
512, 464, 486, 477
517, 524, 467, 510
530, 522, 488, 499
513, 500, 512, 506
530, 500, 526, 505
560, 516, 553, 503
501, 529, 525, 547
591, 519, 577, 543
588, 630, 561, 594
573, 587, 614, 574
585, 609, 592, 628
586, 634, 654, 604
629, 623, 665, 623
646, 614, 632, 605
661, 689, 664, 688
644, 645, 695, 681
724, 734, 733, 727
675, 781, 731, 712
771, 714, 747, 698
607, 597, 582, 617
473, 405, 451, 480
413, 420, 414, 401
432, 421, 381, 433
416, 411, 396, 394
413, 407, 440, 380
397, 411, 388, 425
425, 390, 440, 414
399, 421, 430, 427
450, 385, 414, 399
447, 414, 438, 416
442, 443, 439, 435
390, 416, 418, 467
418, 401, 393, 409
442, 415, 406, 402
382, 426, 406, 397
423, 399, 399, 402
403, 460, 391, 437
493, 434, 407, 442
432, 453, 463, 391
447, 429, 402, 399
441, 404, 402, 390
419, 429, 410, 450
443, 443, 389, 429
401, 431, 399, 407
394, 432, 371, 413
408, 420, 378, 417
422, 414, 426, 435
387, 378, 402, 420
412, 403, 424, 430
441, 368, 393, 411
438, 451, 388, 421
401, 407, 403, 401
382, 428, 395, 401
389, 382, 385, 420
422, 421, 401, 402
383, 388, 401, 386
391, 441, 403, 404
404, 417, 426, 410
422, 426, 411, 423
444, 418, 424, 382
377, 394, 374, 461
401, 435, 407, 404
369, 394, 410, 414
419, 415, 431, 358
398, 421, 395, 380
399, 391, 382, 366
402, 367, 421, 418
401, 395, 397, 367
398, 405, 402, 391
423, 378, 427, 396
418, 427, 405, 403
428, 395, 425, 383
411, 399, 383, 405
352, 348, 402, 399
405, 349, 421, 373
411, 412, 409, 403
379, 392, 395, 401
391, 401, 410, 386
392, 363, 396, 399
392, 396, 379, 362
360, 370, 382, 370
414, 398, 385, 388
350, 351, 350, 349
401, 327, 415, 354
343, 361, 352, 364
335, 385, 321, 365
378, 366, 352, 357
348, 364, 335, 346
370, 384, 339, 371
354, 336, 340, 366
348, 367, 366, 387
335, 341, 361, 374
345, 357, 322, 366
338, 357, 376, 359
351, 332, 326, 365
333, 317, 372, 357
392, 336, 350, 354
363, 359, 328, 326
366, 340, 330, 369
349, 371, 355, 343
339, 354, 381, 371
347, 338, 347, 349
369, 364, 339, 332
341, 364, 375, 387
372, 329, 376, 336
314, 336, 335, 349
372, 330, 362, 340
374, 330, 375, 357
361, 365, 319, 353
353, 347, 342, 367
346, 368, 368, 372
357, 319, 343, 354
382, 344, 336, 359
370, 330, 340, 358
336, 323, 352, 346
357, 339, 346, 355
360, 353, 358, 359
358, 353, 377, 344
369, 381, 361, 344
341, 367, 345, 336
331, 350, 315, 355
364, 338, 348, 349
350, 329, 363, 352
347, 333, 387, 318
348, 352, 351, 343
357, 344, 340, 346
339, 333, 374, 348
343, 378, 323, 357
315, 334, 363, 346
333, 345, 353, 373
345, 318, 362, 341
342, 341, 395, 349
376, 348, 353, 332
360, 362, 346, 358
373, 321, 336, 331
357, 342, 357, 343
376, 349, 356, 331
351, 337, 359, 330
342, 348, 365, 330
342, 342, 349, 347
354, 328, 338, 320
347, 333, 347, 364
346, 333, 337, 363
344, 367, 373, 350
360, 370, 342, 349
376, 359, 344, 322
381, 337, 339, 325
396, 342, 381, 363
334, 374, 343, 340
369, 363, 335, 354
344, 329, 356, 359
321, 369, 367, 358
378, 373, 378, 352
336, 325, 351, 379
354, 333, 360, 328
354, 374, 399, 397
363, 359, 364, 393
377, 397, 392, 387
378, 381, 389, 369
396, 413, 398, 397
388, 363, 384, 385
372, 408, 405, 446
420, 386, 422, 429
382, 380, 409, 460
398, 411, 389, 417
428, 412, 388, 424
445, 434, 427, 426
435, 419, 418, 419
425, 457, 450, 464
400, 420, 462, 435
451, 491, 455, 444
457, 453, 471, 457
479, 450, 508, 467
479, 474, 428, 445
498, 465, 491, 436
474, 475, 467, 448
455, 439, 462, 473
450, 490, 468, 479
503, 442, 455, 493
504, 537, 465, 506
476, 521, 496, 488
437, 514, 475, 508
493, 464, 529, 480
528, 523, 521, 458
483, 463, 476, 510
482, 464, 487, 503
495, 514, 533, 491
519, 482, 483, 502
490, 503, 525, 512
537, 498, 547, 514
512, 517, 540, 498
501, 521, 523, 519
524, 484, 544, 528
545, 563, 580, 553
558, 521, 552, 479
535, 536, 553, 507
554, 567, 479, 500
548, 517, 522, 544
539, 577, 537, 522
509, 532, 518, 556
492, 533, 474, 518
534, 570, 522, 548
580, 499, 531, 513
515, 534, 570, 497
549, 531, 575, 571
529, 561, 557, 548
558, 523, 543, 543
510, 523, 530, 538
533, 563, 508, 521
549, 499, 559, 534
513, 543, 510, 529
554, 536, 509, 527
505, 504, 521, 532
498, 509, 520, 470
538, 510, 513, 510
537, 492, 500, 541
496, 542, 532, 487
515, 479, 507, 495
524, 529, 487, 503
531, 493, 530, 517
443, 518, 507, 486
420, 443, 465, 408
391, 409, 393, 400
446, 400, 406, 370
397, 391, 402, 404
423, 421, 425, 379
430, 407, 392, 431
387, 383, 407, 395
415, 396, 390, 401
411, 382, 437, 400
421, 399, 404, 419
414, 387, 391, 397
411, 398, 444, 408
410, 423, 385, 396
496, 518, 520, 520
485, 523, 516, 499
455, 400, 432, 421
446, 371, 440, 411
384, 401, 410, 415
437, 484, 417, 388
408, 388, 409, 427
390, 414, 453, 406
390, 415, 396, 445
427, 416, 405, 380
420, 435, 421, 437
430, 431, 417, 469
382, 466, 412, 430
444, 411, 409, 430
449, 425, 430, 435
425, 452, 443, 426
441, 443, 433, 438
441, 404, 461, 462
432, 475, 427, 437
444, 420, 414, 439
457, 420, 436, 456
431, 450, 449, 420
430, 424, 461, 463
472, 475, 448, 463
447, 466, 415, 433
419, 476, 437, 446
430, 445, 451, 461
451, 451, 491, 441
432, 516, 391, 437
456, 442, 441, 460
467, 480, 454, 463
436, 429, 424, 437
473, 442, 468, 475
434, 442, 452, 465
508, 490, 483, 457
477, 420, 451, 464
429, 474, 458, 461
492, 428, 483, 502
493, 460, 480, 476
464, 443, 486, 469
474, 488, 482, 503
455, 451, 493, 487
475, 477, 493, 544
488, 470, 443, 490
467, 483, 464, 492
479, 485, 526, 482
490, 490, 484, 482
480, 525, 485, 498
488, 491, 484, 516
506, 434, 503, 477
486, 478, 505, 499
510, 501, 486, 502
485, 476, 517, 493
539, 505, 504, 504
542, 530, 495, 506
541, 501, 515, 495
580, 512, 516, 521
500, 556, 528, 508
491, 584, 538, 519
532, 539, 551, 606
555, 551, 558, 622
584, 611, 577, 610
628, 607, 679, 701
678, 688, 750, 696
768, 740, 739, 778
763, 760, 764, 777
836, 772, 779, 782
768, 760, 715, 694
682, 679, 686, 703
647, 675, 677, 637
647, 611, 645, 602
608, 587, 615, 572
550, 538, 544, 580
523, 576, 586, 531
539, 533, 542, 526
539, 529, 582, 561
534, 551, 566, 522
567, 510, 498, 522
509, 545, 562, 552
503, 524, 515, 537
529, 510, 537, 509
552, 488, 540, 542
481, 523, 501, 541
529, 481, 568, 535
546, 496, 521, 512
519, 529, 501, 495
518, 515, 505, 514
490, 550, 516, 545
535, 564, 493, 536
529, 509, 545, 514
512, 516, 490, 506
556, 465, 535, 510
514, 533, 536, 507
492, 556, 488, 525
514, 519, 577, 543
501, 486, 519, 523
533, 505, 521, 488
515, 505, 513, 567
507, 529, 491, 537
503, 490, 507, 527
457, 516, 543, 537
555, 491, 497, 485
482, 495, 550, 497
554, 505, 496, 498
543, 529, 495, 455
494, 514, 521, 539
508, 570, 466, 555
507, 509, 531, 508
487, 512, 489, 508
522, 551, 516, 514
550, 545, 517, 484
487, 500, 548, 489
481, 532, 490, 520
480, 501, 510, 496
529, 494, 474, 530
501, 532, 506, 464
543, 520, 501, 504
497, 480, 479, 532
523, 531, 494, 486
503, 482, 520, 502
480, 494, 498, 492
485, 470, 491, 484
509, 474, 519, 473
488, 520, 525, 495
505, 507, 502, 490
503, 539, 497, 537
548, 490, 495, 524
523, 512, 512, 507
498, 529, 487, 537
485, 499, 494, 484
525, 509, 531, 520
502, 490, 490, 544
523, 473, 492, 512
487, 485, 513, 487
541, 510, 526, 525
527, 478, 532, 507
514, 534, 510, 510
546, 542, 498, 535
566, 589, 559, 565
636, 608, 652, 593
687, 673, 768, 753
861, 885, 931, 959
1213, 1118, 1229, 1291
1390, 1413, 1393, 1309
1284, 1262, 1153, 1129
961, 964, 875, 845
712, 696, 686, 700
626, 584, 578, 574
525, 569, 554, 552
551, 528, 555, 523
471, 521, 527, 525
488, 513, 553, 540
475, 517, 487, 512
476, 486, 521, 537
453, 512, 502, 506
513, 495, 536, 510
469, 521, 499, 488
468, 467, 488, 493
470, 505, 469, 491
471, 470, 477, 478
498, 459, 490, 467
470, 424, 503, 454
479, 471, 496, 477
464, 481, 464, 481
506, 544, 463, 486
469, 467, 478, 433
470, 458, 489, 475
512, 494, 470, 472
496, 477, 505, 443
455, 448, 487, 454
446, 461, 437, 441
475, 458, 443, 456
478, 468, 424, 469
456, 455, 454, 445
441, 439, 457, 494
477, 431, 470, 459
465, 478, 410, 435
453, 483, 442, 446
443, 430, 441, 499
457, 438, 440, 452
447, 447, 461, 475
441, 461, 454, 439
480, 469, 474, 468
485, 465, 442, 462
488, 491, 510, 542
507, 478, 476, 445
455, 457, 468, 436
430, 428, 470, 463
462, 438, 386, 467
452, 407, 409, 429
407, 459, 405, 437
454, 426, 404, 449
447, 460, 417, 422
461, 458, 431, 452
429, 443, 486, 447
427, 434, 433, 458
399, 428, 431, 503
422, 427, 428, 446
428, 440, 433, 404
416, 416, 436, 400
406, 451, 423, 427
427, 388, 406, 417
420, 422, 417, 425
398, 387, 447, 404
411, 437, 436, 431
423, 406, 431, 452
411, 426, 401, 421
390, 384, 422, 387
415, 396, 435, 441
441, 415, 494, 414
471, 405, 429, 379
379, 437, 393, 395
397, 431, 379, 403
398, 390, 414, 423
430, 407, 383, 411
397, 438, 394, 405
435, 401, 431, 404
427, 396, 441, 428
410, 400, 410, 420
431, 399, 420, 429
432, 387, 400, 391
397, 403, 385, 396
397, 410, 391, 405
432, 412, 418, 393
380, 435, 412, 425
412, 415, 370, 394
422, 384, 428, 419
400, 422, 379, 426
382, 421, 409, 426
387, 415, 416, 393
360, 367, 424, 414
421, 399, 349, 421
429, 385, 418, 420
385, 377, 385, 411
420, 368, 407, 385
381, 395, 412, 404
419, 408, 408, 392
408, 412, 408, 345
373, 424, 389, 399
421, 440, 394, 394
414, 388, 404, 435
421, 401, 385, 377
370, 450, 430, 398
382, 390, 383, 391
398, 395, 359, 428
393, 387, 380, 395
402, 386, 390, 394
400, 410, 417, 388
380, 393, 370, 410
379, 396, 365, 381
399, 398, 409, 381
368, 371, 378, 394
389, 391, 408, 397
398, 379, 364, 388
402, 372, 384, 385
403, 375, 362, 338
375, 379, 368, 378
411, 375, 389, 389
371, 400, 390, 413
382, 375, 377, 390
402, 377, 426, 374
350, 370, 398, 396
411, 372, 368, 374
383, 365, 400, 383
404, 354, 368, 355
374, 370, 394, 338
380, 392, 349, 362
384, 402, 340, 387
379, 382, 430, 372
398, 402, 385, 414
444, 480, 477, 443
416, 423, 364, 392
381, 377, 400, 352
373, 370, 379, 396
393, 358, 337, 331
348, 375, 364, 387
355, 414, 415, 388
331, 371, 397, 344
352, 383, 368, 398
379, 369, 403, 407
417, 379, 345, 369
379, 383, 374, 363
370, 380, 346, 342
368, 381, 350, 356
377, 370, 400, 365
365, 343, 373, 374
374, 367, 340, 373
369, 349, 367, 382
358, 364, 378, 360
380, 340, 345, 365
375, 400, 379, 398
370, 359, 371, 412
497, 519, 483, 496
412, 396, 390, 375
406, 369, 424, 359
345, 361, 358, 379
327, 377, 374, 389
378, 393, 378, 398
376, 372, 381, 403
362, 372, 365, 352
387, 390, 360, 353
340, 359, 335, 353
345, 365, 356, 377
335, 373, 371, 356
355, 346, 371, 375
386, 374, 360, 341
386, 330, 347, 352
368, 393, 336, 372
347, 385, 383, 344
378, 330, 371, 341
336, 359, 358, 339
356, 364, 383, 352
371, 349, 358, 367
359, 330, 358, 332
386, 366, 364, 366
345, 373, 356, 393
323, 354, 374, 344
338, 383, 316, 354
317, 342, 394, 355
339, 329, 342, 331
334, 339, 358, 333
341, 344, 352, 333
357, 330, 341, 346
327, 377, 396, 367
351, 352, 339, 350
404, 364, 333, 376
367, 344, 308, 374
359, 372, 344, 346
345, 327, 383, 389
376, 334, 375, 390
363, 334, 366, 359
346, 354, 363, 376
391, 356, 359, 361
370, 404, 327, 369
333, 375, 347, 354
360, 393, 344, 363
362, 335, 378, 345
371, 328, 313, 354
356, 356, 333, 343
341, 340, 377, 374
347, 376, 327, 366
345, 372, 326, 360
368, 360, 330, 351
355, 393, 359, 393
358, 363, 385, 369
362, 342, 327, 344
322, 381, 357, 370
395, 359, 393, 343
367, 335, 371, 362
366, 357, 357, 314
368, 340, 361, 347
376, 399, 375, 393
437, 476, 461, 514
402, 427, 387, 421
397, 399, 445, 396
408, 383, 382, 437
419, 434, 435, 460
546, 563, 573, 609
1005, 1192, 1387, 1724
5624, 6087, 5992, 5617
1710, 1417, 1212, 1056
638, 619, 603, 578
513, 483, 493, 444
432, 453, 433, 444
412, 454, 403, 428
405, 452, 421, 379
413, 421, 373, 404
379, 366, 395, 388
408, 393, 419, 400
383, 414, 390, 372
396, 395, 402, 386
412, 382, 368, 389
386, 405, 377, 371
395, 387, 359, 393
370, 399, 365, 386
391, 386, 422, 424
409, 377, 351, 367
373, 377, 381, 387
388, 389, 354, 391
376, 401, 420, 390
421, 356, 411, 369
405, 366, 390, 397
372, 378, 405, 371
398, 388, 381, 348
393, 364, 383, 386
373, 380, 342, 376
359, 360, 371, 371
421, 384, 394, 367
390, 390, 364, 400
383, 370, 405, 383
382, 387, 381, 380
387, 355, 385, 399
375, 376, 401, 390
451, 450, 412, 389
437, 415, 451, 474
463, 487, 476, 469
479, 467, 496, 469
463, 490, 474, 486
437, 448, 451, 441
402, 444, 440, 421
428, 383, 352, 420
444, 364, 386, 353
359, 390, 371, 391
394, 391, 406, 392
409, 387, 386, 369
376, 395, 428, 402
373, 370, 382, 410
341, 365, 342, 334
361, 348, 413, 373
431, 371, 398, 353
371, 403, 411, 429
432, 404, 492, 455
420, 404, 417, 442
408, 394, 388, 373
370, 369, 378, 378
363, 399, 392, 374
422, 375, 399, 423
422, 441, 439, 449
564, 548, 628, 573
946, 998, 990, 1031
1016, 1009, 965, 1047
979, 1024, 1012, 1024
990, 1028, 1001, 1057
999, 999, 1036, 1029
1042, 959, 981, 1020
1037, 1024, 1069, 999
1030, 1022, 1125, 1066
1051, 1014, 1050, 1054
1022, 990, 995, 1036
1106, 1076, 1086, 989
1004, 1086, 1016, 1047
1051, 1071, 1122, 1087
1016, 1055, 1065, 1058
1082, 1040, 1055, 1061
1063, 1089, 1127, 1150
1137, 1081, 1114, 1087
1126, 1134, 1127, 1138
1152, 1142, 1133, 1110
1214, 1252, 1252, 1195
1203, 1243, 1256, 1288
1275, 1303, 1273, 1310
1370, 1346, 1417, 1402
1423, 1512, 1437, 1530
1594, 1558, 1562, 1568
1709, 1775, 1806, 1824
1984, 2016, 2049, 2127
2320, 2548, 2569, 2691
3872, 4119, 4407, 4933
6620, 6763, 6935, 7136
6870, 7356, 7608, 8472
16572, 18373, 20316, 21904
37996, 45405, 56275, 72604
548865, 660021, 717569, 676398
100384, 74933, 59831, 52024
71416, 100170, 151722, 218341
230410, 161801, 106386, 69413
18112, 15759, 13756, 11884
7151, 6509, 6034, 5654
4234, 4177, 3954, 3802
3156, 3047, 2913, 2928
2626, 2408, 2415, 2458
2150, 2200, 2056, 2060
1888, 1845, 1811, 1848
1773, 1776, 1714, 1683
1572, 1521, 1473, 1526
1465, 1466, 1459, 1447
1382, 1419, 1364, 1410
1278, 1335, 1254, 1304
1226, 1198, 1261, 1193
1192, 1157, 1137, 1174
1161, 1151, 1151, 1119
1080, 1094, 1108, 1089
1051, 1127, 1102, 1054
1061, 1086, 1033, 1030
957, 1054, 1017, 958
1000, 991, 1026, 939
974, 943, 963, 946
990, 947, 931, 916
959, 900, 956, 904
930, 903, 932, 841
848, 849, 872, 844
926, 931, 842, 829
870, 881, 879, 865
859, 860, 863, 839
864, 872, 867, 807
718, 791, 814, 787
848, 827, 887, 825
818, 803, 831, 857
806, 775, 802, 834
861, 810, 796, 772
781, 840, 803, 796
830, 763, 805, 777
728, 776, 795, 784
768, 761, 765, 793
767, 772, 800, 776
722, 809, 760, 750
766, 711, 769, 762
742, 794, 736, 732
799, 718, 733, 714
739, 749, 730, 751
697, 722, 722, 782
741, 717, 696, 801
710, 742, 728, 724
691, 690, 750, 699
717, 676, 700, 688
720, 728, 682, 654
660, 708, 728, 710
664, 700, 670, 709
678, 716, 745, 678
670, 668, 682, 733
715, 692, 660, 698
679, 655, 679, 696
668, 697, 670, 659
669, 733, 663, 662
634, 666, 686, 696
661, 662, 668, 677
619, 620, 662, 667
649, 641, 618, 685
652, 688, 612, 680
620, 629, 720, 635
631, 617, 676, 656
586, 629, 611, 613
617, 693, 627, 632
645, 665, 664, 639
617, 616, 650, 645
673, 667, 621, 652
628, 636, 649, 622
655, 609, 646, 632
636, 637, 629, 668
633, 668, 634, 622
605, 630, 654, 601
608, 593, 638, 647
638, 636, 615, 602
613, 630, 659, 650
666, 569, 600, 605
663, 606, 592, 635
606, 608, 601, 622
623, 547, 634, 611
611, 650, 629, 573
602, 629, 589, 666
644, 625, 605, 676
596, 620, 636, 599
675, 620, 622, 625
638, 634, 624, 606
626, 618, 575, 631
611, 628, 594, 570
614, 626, 572, 612
627, 571, 560, 614
557, 627, 592, 604
583, 578, 603, 587
656, 562, 609, 592
605, 572, 611, 612
594, 597, 522, 623
596, 584, 574, 601
555, 594, 570, 581
587, 610, 556, 590
575, 587, 524, 547
599, 549, 552, 577
580, 639, 535, 595
612, 564, 635, 583
541, 548, 575, 547
560, 566, 599, 545
538, 541, 564, 582
618, 565, 566, 613
546, 594, 601, 527
554, 554, 563, 566
529, 560, 565, 553
557, 556, 546, 548
548, 551, 586, 510
550, 585, 543, 558
574, 563, 565, 548
570, 546, 548, 568
581, 549, 610, 540
527, 560, 547, 545
529, 557, 542, 518
544, 527, 598, 564
554, 547, 530, 544
549, 523, 523, 553
535, 540, 550, 549
525, 520, 510, 549
519, 542, 545, 575
506, 529, 546, 509
502, 555, 487, 510
539, 560, 503, 536
535, 545, 522, 501
519, 542, 533, 532
560, 547, 573, 560
571, 557, 531, 529
570
*END

*EOF